Table 1:
DOI: 10.1016/j.optmat.2018.04.050
Caption: Qualitative solubility of 3.
Footer: {'a': 'Measured at a concentration of 1 mg mL-1 in solvents at 25 degC.', 'b': '(+): soluble at room temperature.', 'c': '(+-): partially soluble on heating at 35 degC in sonicator.', 'd': 'TCE: 1,1,2,2- tetrachloroethane.', 'e': 'TFAc: trifluoroaceticacid.', 'f': 'NMP: N-methyl-2-pyrrolidinone.', 'g': 'DMF: dimethylformamide.', 'h': 'DMAC: N,N-dimethyl acetamide.', 'i': 'DMSO: dimethyl sulfoxide.'}
Table Data:
Solvent	Solubility a /Color	a	a																																																																																																																																																																																																																																																																																																																																																																																																												
TCE d	d	d	(+-) c	c	c	/Pink																																																																																																																																																																																																																																																																																																																																																																																																									
TFAc e	e	e	(+) b	b	b	/Orange																																																																																																																																																																																																																																																																																																																																																																																																									
CH2Cl2	2	2	(+-)	/Pale pink																																																																																																																																																																																																																																																																																																																																																																																																											
EtOH	(+-)	/Pale pink																																																																																																																																																																																																																																																																																																																																																																																																													
NMP f	f	f	(+)	/bordeaux																																																																																																																																																																																																																																																																																																																																																																																																											
CH3OH	3	(+-)	/Pale pink																																																																																																																																																																																																																																																																																																																																																																																																												
DMF g	g	g	(+)	/Orange																																																																																																																																																																																																																																																																																																																																																																																																											
DMAC h	h	h	(+)	/Orange																																																																																																																																																																																																																																																																																																																																																																																																											
DMSO i	i	i	(+)	/Red																																																																																																																																																																																																																																																																																																																																																																																																											

Table 2:
DOI: 10.1016/j.optmat.2018.04.050
Caption: Absorption, emission wavelengths and calculated Stoke's shifts (

D


n
-



) of 3 in various solvents.
Footer: {'a': 'l\nexcitation = 485 nm.'}
Table Data:
<Solvent	l abs/nm	l	abs	l abs,max/nm	l	abs,max	l em/nm a	l	em	a	a	l em,max/nm	l	em,max	D   n -    /cm-1	D   n -	D   n -	D	n -	n -	n	-	-1																																																																																																																																																																																																																																																																																																																																																																																								
TCE	368,464,495,531	531	541,582,631	541	1000000																																																																																																																																																																																																																																																																																																																																																																																																										
DCM	369,460,491,528	528	537,578,629	537	1111111																																																																																																																																																																																																																																																																																																																																																																																																										
NMP	371,462,492,528,681,703	528	549,583,639	549	476190																																																																																																																																																																																																																																																																																																																																																																																																										
MeOH	369,489,523	523	536,577,632	536	769231																																																																																																																																																																																																																																																																																																																																																																																																										
DMF	369,463,491,528	528	545,583,634	545	588235																																																																																																																																																																																																																																																																																																																																																																																																										
DMAC	367,461,491,527,677,704	527	546,583,634	546	526316																																																																																																																																																																																																																																																																																																																																																																																																										
DMSO	369,464,495,531	531	551,584,-	551	500000																																																																																																																																																																																																																																																																																																																																																																																																										

Table 3:
DOI: 10.1016/j.optmat.2018.04.050
Caption: Molar absorption coefficients of 2 and 3 in various solvents.
Footer: {'a': 'l\nmax (nm): maximum absorption wavelength.', 'b': 'e\nmax(L mol-1 cm-1): molar absorption coefficient.'}
Table Data:
Compound	Solvent	l  max(1)  a	l	l	max(1)	a	a	e  max(1)  b	e	e	max(1)	b	b	l  max(2)	l	l	max(2)	e  max(2)	e	e	max(2)	l  max(3)	l	l	max(3)	e  max(3)	e	e	max(3)																																																																																																																																																																																																																																																																																																																																																																																		
3	3	NMP	528	50583	492	33581	462	15081																																																																																																																																																																																																																																																																																																																																																																																																							
3	DMF	528	101325	491	69125	463	25953																																																																																																																																																																																																																																																																																																																																																																																																								
3	DMAC	527	74693	491	49601	461	20324																																																																																																																																																																																																																																																																																																																																																																																																								
3	DMSO	531	84315	495	55624	464	23328																																																																																																																																																																																																																																																																																																																																																																																																								
2	2	NMP	311	10500																																																																																																																																																																																																																																																																																																																																																																																																											
2	DMAc	311	8500																																																																																																																																																																																																																																																																																																																																																																																																												

Table 4:
DOI: 10.1016/j.optmat.2018.04.050
Caption: Concentration dependent absorption and emission bands maxima of 3 in DMF and NMP.
Footer: {'a': 'lexcitation = 485 nm.', 'b': 'lexcitation = 315 nm.'}
Table Data:
Solvent	Concentration/M	l abs/nm	l	abs	l abs,max/nm	l	abs,max	l em/nm a	l	em	a	a	l em,max/nm a	l	em,max	a	a	l em/nm b	l	em	b	b	lem,max/nm b	em,max	b	b																																																																																																																																																																																																																																																																																																																																																																																					
DMF	2.0 x 10-5	-5	369, 463, 491, 528	528	545, 583, 634	545	364, 548, 584	548																																																																																																																																																																																																																																																																																																																																																																																																							
DMF	1.5 x 10-5	-5	370, 461, 492, 529	529	546, 583, 634	546	364, 546, 584	546																																																																																																																																																																																																																																																																																																																																																																																																							
DMF	1.0 x 10-5	-5	371, 461, 492, 528	528	545, 583, 634	545	364, 546, 583	546																																																																																																																																																																																																																																																																																																																																																																																																							
DMF	5.0 x 10-6	-6	461, 492, 528	528	543, 583, 634	543	362, 543, 583	543																																																																																																																																																																																																																																																																																																																																																																																																							
DMF	1.0 x 10-6	-6	461, 492, 528	528	540, 583	540	362, 541, 583	541																																																																																																																																																																																																																																																																																																																																																																																																							
NMP	5.0 x 10-5	-5	371, 462, 492, 528, 681, 703, 740, 764	528	549, 583, 639	549	425, 549, 583	549																																																																																																																																																																																																																																																																																																																																																																																																							
NMP	2.5 x 10-5	-5	370,461,492,529,680,703,739,764	529	548, 582, 637	548	425, 544, 583	544																																																																																																																																																																																																																																																																																																																																																																																																							
NMP	1.0 x 10-5	-5	458, 489, 526, 704	526	541, 579, 632	541	425, 540, 582	540																																																																																																																																																																																																																																																																																																																																																																																																							
NMP	5.0 x 10-6	-6	460, 489, 526, 703	526	539, 579, 627	539	425, 541, 580	541																																																																																																																																																																																																																																																																																																																																																																																																							
NMP	1.0 x 10-6	-6	489, 526, 708	526	539, 579	539	425, 539, 578	539																																																																																																																																																																																																																																																																																																																																																																																																							

Table 5:
DOI: 10.1016/j.optmat.2018.04.050
Caption: Fluorescence quantum yield Ph
f data in various solvents at different excitation wavelengths.
Footer: {'a': 'lexcitation = 485 nm.', 'b': 'lexcitation = 315 nm.'}
Table Data:
Solvent	Ph f  a	Ph	f	a	a	Ph f  b	Ph	f	b	b																																																																																																																																																																																																																																																																																																																																																																																																					
TCE	0.30	0.044																																																																																																																																																																																																																																																																																																																																																																																																													
DCM	0.25	-																																																																																																																																																																																																																																																																																																																																																																																																													
NMP	0.30	0.03																																																																																																																																																																																																																																																																																																																																																																																																													
MeOH	0.10	-																																																																																																																																																																																																																																																																																																																																																																																																													
DMF	0.50	0.048																																																																																																																																																																																																																																																																																																																																																																																																													
DMAC	0.25	0.026																																																																																																																																																																																																																																																																																																																																																																																																													
DMSO	0.10	-																																																																																																																																																																																																																																																																																																																																																																																																													

Table 6:
DOI: 10.1016/j.optmat.2018.04.050
Caption: Maximum absorption wavelength l
max (nm), molar extinction coefficient e
max (L mol-1 cm-1), oscillator strength f, fluorescence quantum yield Ph
f (l
exc = 485 nm), radiative life time t
0 (ns), fluorescence life time t
f (ns), fluorescence rate constant k
f (s-1), rate constant of radiationless deactivation k
d (s-1), and singlet energy E
s (kcal mol-1) data of 2 and 3.
Footer: {'a': 'l\nexc = 310 nm.'}
Table Data:
	solvent	l  max	l	l	max	e max	e	max	f	Ph  f	Ph	Ph	f	t 0	t	0	t f	t	f	k  f	k	k	f	k  d	k	k	d	E s	E	s																																																																																																																																																																																																																																																																																																																																																																																	
3	3	NMP	528	50583	0.24	0.30	17.5	5.25	5.71 x 107	x	x	7	1.33 x 108	x	x	8	54.16																																																																																																																																																																																																																																																																																																																																																																																														
3	DMF	528	101325	0.40	0.50	10.5	5.25	9.52 x 107	x	x	7	9.52 x 107	x	x	7	54.16																																																																																																																																																																																																																																																																																																																																																																																															
2	2	NMP	311	10427	0.11	0.50 a	a	a	11.1	5.55	9.00 x 107	x	x	7	9.00 x 107	x	x	7	91.96																																																																																																																																																																																																																																																																																																																																																																																												
2	DMAc	311	8331	0.13	0.40 a	a	a	13.3	5.32	7.52 x 107	x	x	7	1.13 x 108	x	x	8	91.96																																																																																																																																																																																																																																																																																																																																																																																													

Table 7:
DOI: 10.1016/j.optmat.2018.04.050
Caption: Electrochemical data of 3 in various solvents.
Footer: {'a': 'E\npc: cathodic potential.', 'b': 'E\npa: anodic potential.', 'c': 'DE\n\np\n: peak potential separations.', 'd': 'E\n1/2: half wave potential.', 'e': 'E\n\nFc\n: oxidation potential of ferrocene (internal reference).', 'f': 'LUMO: lowest unoccupied molecular orbital.', 'g': 'E\n\ng\n: energy gap calculated by optical data.', 'h': 'HOMO: highest occupied molecular orbital calculated by optical data.'}
Table Data:
	Scan rate (mVs -1 )	(mVs	-1	)	E  pc  a  (V)	E	E	pc	a	a	E  pa  b  (V)	E	E	pa	b	b	DE  p  c  (mV)	DE	E	p	c	c	E  1/2  d  vs. Ag/AgCl (V)	E	E	1/2	d	d	vs	E  Fc  e  vs. Ag/AgCl (V)	E	E	Fc	e	e	vs	E  1/2 vs. Fc (V)	E	E	1/2	vs	LUMO  f  (eV)	LUMO	f	f	E  g  g  (eV)	E	E	g	g	g	HOMO  h  (eV)	HOMO	h	h																																																																																																																																																																																																																																																																																																																																																								
100	-0.269	-0.181	88	-0.225	0.509	-0.734	-4.07	1.59	-5.66																																																																																																																																																																																																																																																																																																																																																																																																						
100	-0.496	-0.388	108	-0.442	0.509	-0.951																																																																																																																																																																																																																																																																																																																																																																																																									
100	-0.244	-0.153	91	-0.199	0.592	-0.791	-4.01	1.62	-5.63																																																																																																																																																																																																																																																																																																																																																																																																						
100	-0.475	-0.384	91	-0.430	0.592	-1.022																																																																																																																																																																																																																																																																																																																																																																																																									
100	-0.239	-0.152	87	-0.196	0.583	-0.779	-4.07	1.63	-5.70																																																																																																																																																																																																																																																																																																																																																																																																						
100	-0.479	-0.385	94	-0.432	0.583	-1.015																																																																																																																																																																																																																																																																																																																																																																																																									
Solid-state	100	-0.021	-0.467	446	-0.244	0.320	-0.564	-4.24	1.93	-6.17																																																																																																																																																																																																																																																																																																																																																																																																					

